stair.thisTrialN,stair.stepSize,stair.intensity,thisRow.t,notes,trial.started,fixation.started,grating.started,key_resp.started,fixation.stopped,grating.stopped,trial.stopped,corrAns,tilt,key_resp.corr,stair.response,key_resp.rt,participant,session,date,expName,psychopyVersion,frameRate,expStart,
0,2,10.0,0.041700600006151944,,0.02741129999049008,0.041700600006151944,0.5255432999983896,0.5255432999983896,0.5435074999986682,0.8246091000037268,2.277968399983365,left,-10.0,0,0,1.6700486000045203,405782,001,2024-09-12_22h52.47.733,Adaptive  staircase_ZiyaRaval_Final,2024.1.5,None,2024-09-12 22h52.52.784998 +0530,
1,2,12.0,2.2899028999963775,,2.2780640999844763,2.2899028999963775,2.791194799996447,2.791194799996447,2.791194799996447,,2.908523999998579,left,-12.0,0,0,0.10332120000384748,405782,001,2024-09-12_22h52.47.733,Adaptive  staircase_ZiyaRaval_Final,2024.1.5,None,2024-09-12 22h52.52.784998 +0530,
2,1,14.0,2.9242305000079796,,2.908595199987758,2.9242305000079796,3.4095922999840695,3.4095922999840695,3.4246194000006653,,3.558658900001319,left,-14.0,1,1,0.14503389998571947,405782,001,2024-09-12_22h52.47.733,Adaptive  staircase_ZiyaRaval_Final,2024.1.5,None,2024-09-12 22h52.52.784998 +0530,
3,1,13.0,3.5742456000007223,,3.5587291999836452,3.5742456000007223,4.05763530000695,4.05763530000695,4.074356800003443,4.357581099990057,4.375770199985709,right,13.0,0,0,0.3081532000214793,405782,001,2024-09-12_22h52.47.733,Adaptive  staircase_ZiyaRaval_Final,2024.1.5,None,2024-09-12 22h52.52.784998 +0530,
4,1,14.0,4.391100899985759,,4.375842099980218,4.391100899985759,4.890408499981277,4.890408499981277,4.890408499981277,,5.158544400008395,right,14.0,1,1,0.26041399998939596,405782,001,2024-09-12_22h52.47.733,Adaptive  staircase_ZiyaRaval_Final,2024.1.5,None,2024-09-12 22h52.52.784998 +0530,
5,1,14.0,5.173751299997093,,5.1586287999816705,5.173751299997093,5.674101699987659,5.674101699987659,5.674101699987659,,5.69187989999773,right,14.0,1,1,0.010055500024463981,405782,001,2024-09-12_22h52.47.733,Adaptive  staircase_ZiyaRaval_Final,2024.1.5,None,2024-09-12 22h52.52.784998 +0530,
6,0.5,14.0,5.707176099997014,,5.691949800006114,5.707176099997014,6.192551499989349,6.192551499989349,6.209130700008245,,6.2919559000001755,left,-14.0,1,1,0.0831692999927327,405782,001,2024-09-12_22h52.47.733,Adaptive  staircase_ZiyaRaval_Final,2024.1.5,None,2024-09-12 22h52.52.784998 +0530,
7,0.5,13.5,6.307325999980094,,6.292028299998492,6.307325999980094,6.807402400008868,6.807402400008868,6.807402400008868,,6.975591800000984,left,-13.5,0,0,0.16499600000679493,405782,001,2024-09-12_22h52.47.733,Adaptive  staircase_ZiyaRaval_Final,2024.1.5,None,2024-09-12 22h52.52.784998 +0530,
8,0.5,14.0,6.990480299980845,,6.9757286999956705,6.990480299980845,7.491817200003425,7.491817200003425,7.491817200003425,,7.608514199993806,right,14.0,0,0,0.11371199999121018,405782,001,2024-09-12_22h52.47.733,Adaptive  staircase_ZiyaRaval_Final,2024.1.5,None,2024-09-12 22h52.52.784998 +0530,
9,0.5,14.5,7.623740699986229,,7.608604399982141,7.623740699986229,8.108176499983529,8.108176499983529,8.1254907999828,,8.228780300007202,left,-14.5,1,1,0.11193300000741147,405782,001,2024-09-12_22h52.47.733,Adaptive  staircase_ZiyaRaval_Final,2024.1.5,None,2024-09-12 22h52.52.784998 +0530,
10,0.5,14.5,8.241860399983125,,8.228966900001979,8.241860399983125,8.740385499986587,8.740385499986587,8.756813099986175,,8.841399099997943,right,14.5,0,0,None,405782,001,2024-09-12_22h52.47.733,Adaptive  staircase_ZiyaRaval_Final,2024.1.5,None,2024-09-12 22h52.52.784998 +0530,
11,0.5,15.0,8.856805099989288,,8.84150049998425,8.856805099989288,9.357083399983821,9.357083399983821,9.357083399983821,,9.3917739999888,left,-15.0,0,0,0.018611400009831414,405782,001,2024-09-12_22h52.47.733,Adaptive  staircase_ZiyaRaval_Final,2024.1.5,None,2024-09-12 22h52.52.784998 +0530,
12,0.5,15.5,9.406927500007441,,9.391884699987713,9.406927500007441,9.90792140000849,9.90792140000849,9.90792140000849,10.207985799992457,20.58985620000749,right,15.5,0,0,10.678907800000161,405782,001,2024-09-12_22h52.47.733,Adaptive  staircase_ZiyaRaval_Final,2024.1.5,None,2024-09-12 22h52.52.784998 +0530,
13,0.5,16.0,20.6053768999991,,20.589962199999718,20.6053768999991,21.088646499993047,21.088646499993047,21.105723299988313,,21.206268299982185,right,16.0,0,0,0.11033860000316054,405782,001,2024-09-12_22h52.47.733,Adaptive  staircase_ZiyaRaval_Final,2024.1.5,None,2024-09-12 22h52.52.784998 +0530,
14,0.5,16.5,21.221963599993614,,21.20633699998143,21.221963599993614,21.705302999995183,21.705302999995183,21.722165799990762,,21.822987899999134,left,-16.5,1,1,0.10128419997636229,405782,001,2024-09-12_22h52.47.733,Adaptive  staircase_ZiyaRaval_Final,2024.1.5,None,2024-09-12 22h52.52.784998 +0530,
15,0.5,16.5,21.83848420000868,,21.82305340000312,21.83848420000868,22.322410599997966,22.322410599997966,22.339187599980505,,22.340291200001957,right,16.5,0,0,0.004173099994659424,405782,001,2024-09-12_22h52.47.733,Adaptive  staircase_ZiyaRaval_Final,2024.1.5,None,2024-09-12 22h52.52.784998 +0530,
16,0.5,17.0,22.3551768999896,,22.340388999989955,22.3551768999896,22.85492099999101,22.85492099999101,22.85492099999101,,22.889914400002453,right,17.0,0,0,0.03380319999996573,405782,001,2024-09-12_22h52.47.733,Adaptive  staircase_ZiyaRaval_Final,2024.1.5,None,2024-09-12 22h52.52.784998 +0530,
17,0.5,17.5,22.905098699993687,,22.890012499992736,22.905098699993687,23.40524279998499,23.40524279998499,23.40524279998499,,23.506239499984076,right,17.5,0,0,None,405782,001,2024-09-12_22h52.47.733,Adaptive  staircase_ZiyaRaval_Final,2024.1.5,None,2024-09-12 22h52.52.784998 +0530,
18,0.5,18.0,23.521506499993848,,23.50634039999568,23.521506499993848,24.005924800003413,24.005924800003413,24.022755499987397,,24.25906759998179,right,18.0,1,1,0.23587589999078773,405782,001,2024-09-12_22h52.47.733,Adaptive  staircase_ZiyaRaval_Final,2024.1.5,None,2024-09-12 22h52.52.784998 +0530,
19,0.5,18.0,24.27231080000638,,24.2592253999901,24.27231080000638,24.77149189999909,24.77149189999909,24.77149189999909,,24.839229000004707,right,18.0,1,1,0.056040900002699345,405782,001,2024-09-12_22h52.47.733,Adaptive  staircase_ZiyaRaval_Final,2024.1.5,None,2024-09-12 22h52.52.784998 +0530,
20,0.5,18.0,24.8549204999872,,24.839297600003192,24.8549204999872,25.33897270000307,25.33897270000307,25.355440299987094,,25.35678299999563,left,-18.0,0,0,0.008535000000847504,405782,001,2024-09-12_22h52.47.733,Adaptive  staircase_ZiyaRaval_Final,2024.1.5,None,2024-09-12 22h52.52.784998 +0530,
21,0.5,18.5,25.37191509999684,,25.35689419999835,25.37191509999684,25.872762199986028,25.872762199986028,25.872762199986028,,26.12502539998968,left,-18.5,0,0,0.24972880000132136,405782,001,2024-09-12_22h52.47.733,Adaptive  staircase_ZiyaRaval_Final,2024.1.5,None,2024-09-12 22h52.52.784998 +0530,
22,0.5,19.0,26.13892259998829,,26.125145600002725,26.13892259998829,26.63858159998199,26.63858159998199,26.63858159998199,,26.8231545999879,left,-19.0,0,0,0.16786799998953938,405782,001,2024-09-12_22h52.47.733,Adaptive  staircase_ZiyaRaval_Final,2024.1.5,None,2024-09-12 22h52.52.784998 +0530,
23,0.5,19.5,26.838811099994928,,26.823283000005176,26.838811099994928,27.323289699997986,27.323289699997986,27.339823999995133,27.63852360000601,28.158064899995225,left,-19.5,0,0,0.8288151000160724,405782,001,2024-09-12_22h52.47.733,Adaptive  staircase_ZiyaRaval_Final,2024.1.5,None,2024-09-12 22h52.52.784998 +0530,
24,0.5,20.0,28.171589000005042,,28.158226500003366,28.171589000005042,28.67218920000596,28.67218920000596,28.67218920000596,,28.756792300002417,left,-20.0,1,1,0.0682641000021249,405782,001,2024-09-12_22h52.47.733,Adaptive  staircase_ZiyaRaval_Final,2024.1.5,None,2024-09-12 22h52.52.784998 +0530,
25,0.5,20.0,28.77176619999227,,28.75689719998627,28.77176619999227,29.271626100002322,29.271626100002322,29.271626100002322,,29.29083690000698,right,20.0,1,1,0.013199299981351942,405782,001,2024-09-12_22h52.47.733,Adaptive  staircase_ZiyaRaval_Final,2024.1.5,None,2024-09-12 22h52.52.784998 +0530,
26,0.5,20.0,29.304952200007392,,29.290968799992697,29.304952200007392,29.804598399990937,29.804598399990937,29.804598399990937,30.105242399993585,30.322795299987774,left,-20.0,0,0,0.5013448999961838,405782,001,2024-09-12_22h52.47.733,Adaptive  staircase_ZiyaRaval_Final,2024.1.5,None,2024-09-12 22h52.52.784998 +0530,
27,0.5,20.0,30.33790489999228,,30.32294039998669,30.33790489999228,30.838304300006712,30.838304300006712,30.838304300006712,,31.104625699983444,left,-20.0,0,0,0.25675710002542473,405782,001,2024-09-12_22h52.47.733,Adaptive  staircase_ZiyaRaval_Final,2024.1.5,None,2024-09-12 22h52.52.784998 +0530,
28,0.5,20.0,31.12101370000164,,31.104695599991828,31.12101370000164,31.603964599984465,31.603964599984465,31.62099820000003,,31.80591959998128,left,-20.0,0,0,0.19470830002683215,405782,001,2024-09-12_22h52.47.733,Adaptive  staircase_ZiyaRaval_Final,2024.1.5,None,2024-09-12 22h52.52.784998 +0530,
29,0.5,20.0,31.821049699996365,,31.806028799997875,31.821049699996365,32.30447239999194,32.30447239999194,32.321372000005795,,32.405357999989064,left,-20.0,0,0,0.09167840000009164,405782,001,2024-09-12_22h52.47.733,Adaptive  staircase_ZiyaRaval_Final,2024.1.5,None,2024-09-12 22h52.52.784998 +0530,
30,0.5,20.0,32.421272899984615,,32.405428400001256,32.421272899984615,32.90460370000801,32.90460370000801,32.92127610000898,,33.0887584000011,right,20.0,1,1,0.18307470000581816,405782,001,2024-09-12_22h52.47.733,Adaptive  staircase_ZiyaRaval_Final,2024.1.5,None,2024-09-12 22h52.52.784998 +0530,
31,0.5,20.0,33.103977899998426,,33.088841999997385,33.103977899998426,33.58806579999509,33.58806579999509,33.60503599999356,33.88772100000642,33.87259339998127,right,20.0,1,1,0.2722807000100147,405782,001,2024-09-12_22h52.47.733,Adaptive  staircase_ZiyaRaval_Final,2024.1.5,None,2024-09-12 22h52.52.784998 +0530,
32,0.5,20.0,33.88772100000642,,33.87270010000793,33.88772100000642,34.38844429998426,34.38844429998426,34.38844429998426,,34.57256080000661,right,20.0,1,1,0.17040370000177063,405782,001,2024-09-12_22h52.47.733,Adaptive  staircase_ZiyaRaval_Final,2024.1.5,None,2024-09-12 22h52.52.784998 +0530,
33,0.5,19.5,34.58768979998422,,34.57267460000003,34.58768979998422,35.08778199998778,35.08778199998778,35.08778199998778,,35.290887899987865,left,-19.5,0,0,0.1978786000108812,405782,001,2024-09-12_22h52.47.733,Adaptive  staircase_ZiyaRaval_Final,2024.1.5,None,2024-09-12 22h52.52.784998 +0530,
34,0.5,20.0,35.30442309999489,,35.29104109999025,35.30442309999489,35.80499050000799,35.80499050000799,35.80499050000799,36.104959899996174,36.14013149999664,left,-20.0,0,0,0.3256029000040144,405782,001,2024-09-12_22h52.47.733,Adaptive  staircase_ZiyaRaval_Final,2024.1.5,None,2024-09-12 22h52.52.784998 +0530,
35,0.5,20.0,36.15542209998239,,36.1402839999937,36.15542209998239,36.654179300006945,36.654179300006945,36.6712789000012,,36.92214939999394,left,-20.0,0,0,0.25566539997817017,405782,001,2024-09-12_22h52.47.733,Adaptive  staircase_ZiyaRaval_Final,2024.1.5,None,2024-09-12 22h52.52.784998 +0530,
36,0.5,20.0,36.93750599998748,,36.92229809999117,36.93750599998748,37.419862999988254,37.419862999988254,37.43678029999137,,37.605150399991544,left,-20.0,0,0,0.1711563999997452,405782,001,2024-09-12_22h52.47.733,Adaptive  staircase_ZiyaRaval_Final,2024.1.5,None,2024-09-12 22h52.52.784998 +0530,
37,0.5,20.0,37.62006190000102,,37.60526340000797,37.62006190000102,38.10398709998117,38.10398709998117,38.120783599995775,,38.308093800005736,left,-20.0,0,0,0.19381599998450838,405782,001,2024-09-12_22h52.47.733,Adaptive  staircase_ZiyaRaval_Final,2024.1.5,None,2024-09-12 22h52.52.784998 +0530,
38,0.5,20.0,38.3215429999982,,38.30826319998596,38.3215429999982,38.819888099998934,38.819888099998934,38.83645619999152,,38.987183299992466,left,-20.0,0,0,0.15193920000456274,405782,001,2024-09-12_22h52.47.733,Adaptive  staircase_ZiyaRaval_Final,2024.1.5,None,2024-09-12 22h52.52.784998 +0530,
39,0.5,20.0,39.00355540000601,,38.98724689998198,39.00355540000601,39.4872003000055,39.4872003000055,39.50337399999262,,39.755768500006525,left,-20.0,0,0,0.2648228000034578,405782,001,2024-09-12_22h52.47.733,Adaptive  staircase_ZiyaRaval_Final,2024.1.5,None,2024-09-12 22h52.52.784998 +0530,
40,0.5,20.0,39.76991149998503,,39.75589490000857,39.76991149998503,40.269758499984164,40.269758499984164,40.269758499984164,40.56932710000547,41.32131010000012,left,-20.0,1,1,1.035671799996635,405782,001,2024-09-12_22h52.47.733,Adaptive  staircase_ZiyaRaval_Final,2024.1.5,None,2024-09-12 22h52.52.784998 +0530,
41,0.5,20.0,41.33651299998746,,41.32139860000461,41.33651299998746,41.83669649998774,41.83669649998774,41.83669649998774,42.13702329999069,42.43677309999475,right,20.0,1,1,0.5947549000266008,405782,001,2024-09-12_22h52.47.733,Adaptive  staircase_ZiyaRaval_Final,2024.1.5,None,2024-09-12 22h52.52.784998 +0530,
42,0.5,20.0,42.4528522999899,,42.43684119998943,42.4528522999899,42.936941599997226,42.936941599997226,42.95392259999062,,42.956251199997496,left,-20.0,1,1,0.016922400012845173,405782,001,2024-09-12_22h52.47.733,Adaptive  staircase_ZiyaRaval_Final,2024.1.5,None,2024-09-12 22h52.52.784998 +0530,
43,0.5,19.5,42.96977989998413,,42.956381600000896,42.96977989998413,43.47067009998136,43.47067009998136,43.47067009998136,,43.603818400006276,right,19.5,1,1,0.1287618999776896,405782,001,2024-09-12_22h52.47.733,Adaptive  staircase_ZiyaRaval_Final,2024.1.5,None,2024-09-12 22h52.52.784998 +0530,
44,0.5,19.5,43.619845999986865,,43.60389969998505,43.619845999986865,44.103098699997645,44.103098699997645,44.11979249998694,44.40392949999659,45.12089930000366,left,-19.5,1,1,1.007745100010652,405782,001,2024-09-12_22h52.47.733,Adaptive  staircase_ZiyaRaval_Final,2024.1.5,None,2024-09-12 22h52.52.784998 +0530,
45,0.5,19.5,45.13633869998739,,45.121013299998594,45.13633869998739,45.6366594999854,45.6366594999854,45.6366594999854,45.93612430000212,45.98828049999429,right,19.5,0,0,0.3382225999957882,405782,001,2024-09-12_22h52.47.733,Adaptive  staircase_ZiyaRaval_Final,2024.1.5,None,2024-09-12 22h52.52.784998 +0530,
46,0.5,20.0,46.00273380000726,,45.988421699992614,46.00273380000726,46.5034214000043,46.5034214000043,46.5034214000043,46.80216809999547,47.25991580000846,right,20.0,1,1,0.7525917000020854,405782,001,2024-09-12_22h52.47.733,Adaptive  staircase_ZiyaRaval_Final,2024.1.5,None,2024-09-12 22h52.52.784998 +0530,
47,0.5,20.0,47.27204769998207,,47.26009399999748,47.27204769998207,47.77098100000876,47.77098100000876,47.78624459999264,48.07121009999537,50.27196290000575,right,20.0,0,0,2.4870188000204507,405782,001,2024-09-12_22h52.47.733,Adaptive  staircase_ZiyaRaval_Final,2024.1.5,None,2024-09-12 22h52.52.784998 +0530,
48,0.5,20.0,50.28603509999812,,50.27207139998791,50.28603509999812,50.7866715999844,50.7866715999844,50.7866715999844,51.087230400007684,55.470038200001,right,20.0,1,1,4.672253700002329,405782,001,2024-09-12_22h52.47.733,Adaptive  staircase_ZiyaRaval_Final,2024.1.5,None,2024-09-12 22h52.52.784998 +0530,
49,0.5,20.0,55.48518210000475,,55.47015179999289,55.48518210000475,55.98515209998004,55.98515209998004,55.98515209998004,56.287859000003664,58.40333649999229,right,20.0,1,1,2.403746100026183,405782,001,2024-09-12_22h52.47.733,Adaptive  staircase_ZiyaRaval_Final,2024.1.5,None,2024-09-12 22h52.52.784998 +0530,
50,0.5,20.0,58.417662399995606,,58.403455899999244,58.417662399995606,58.91717189998599,58.91717189998599,58.91717189998599,,58.95131579998997,right,20.0,1,1,0.027733199996873736,405782,001,2024-09-12_22h52.47.733,Adaptive  staircase_ZiyaRaval_Final,2024.1.5,None,2024-09-12 22h52.52.784998 +0530,
51,0.5,19.5,58.96691230000579,,58.95141660000081,58.96691230000579,59.450456899998244,59.450456899998244,59.46721529998467,59.75227389999782,61.12255410000216,right,19.5,0,0,1.654270400002133,405782,001,2024-09-12_22h52.47.733,Adaptive  staircase_ZiyaRaval_Final,2024.1.5,None,2024-09-12 22h52.52.784998 +0530,
52,0.5,20.0,61.133772100001806,,61.12273830000777,61.133772100001806,61.633838000008836,61.633838000008836,61.633838000008836,61.93331140000373,62.07234889999381,left,-20.0,1,1,0.42761650000466034,405782,001,2024-09-12_22h52.47.733,Adaptive  staircase_ZiyaRaval_Final,2024.1.5,None,2024-09-12 22h52.52.784998 +0530,
53,0.5,20.0,62.084775700001046,,62.07255089998944,62.084775700001046,62.58422759998939,62.58422759998939,62.58422759998939,62.88494079999509,62.886656899994705,left,-20.0,1,1,0.2978147999965586,405782,001,2024-09-12_22h52.47.733,Adaptive  staircase_ZiyaRaval_Final,2024.1.5,None,2024-09-12 22h52.52.784998 +0530,
54,0.5,20.0,62.90084180000122,,62.88676520000445,62.90084180000122,63.40103710000403,63.40103710000403,63.40103710000403,,63.501957100001164,right,20.0,1,1,0.08951170000364073,405782,001,2024-09-12_22h52.47.733,Adaptive  staircase_ZiyaRaval_Final,2024.1.5,None,2024-09-12 22h52.52.784998 +0530,
55,0.5,19.5,63.51705100000254,,63.502062499988824,63.51705100000254,64.01703419999103,64.01703419999103,64.01703419999103,64.3168861999875,64.40281289999257,left,-19.5,0,0,0.3745583000127226,405782,001,2024-09-12_22h52.47.733,Adaptive  staircase_ZiyaRaval_Final,2024.1.5,None,2024-09-12 22h52.52.784998 +0530,
56,0.5,20.0,64.41712140000891,,64.40297870000359,64.41712140000891,64.91728140000487,64.91728140000487,64.91728140000487,,65.15328259998932,right,20.0,1,1,0.2341500999755226,405782,001,2024-09-12_22h52.47.733,Adaptive  staircase_ZiyaRaval_Final,2024.1.5,None,2024-09-12 22h52.52.784998 +0530,
57,0.5,20.0,65.16680229999474,,65.15343289999873,65.16680229999474,65.6669142000028,65.6669142000028,65.6669142000028,65.96686449999106,66.63529879998532,left,-20.0,0,0,0.9522560999903362,405782,001,2024-09-12_22h52.47.733,Adaptive  staircase_ZiyaRaval_Final,2024.1.5,None,2024-09-12 22h52.52.784998 +0530,
58,0.5,20.0,66.64988529999391,,66.63542710000183,66.64988529999391,67.15007649999461,67.15007649999461,67.15007649999461,67.45008219999727,69.66773519999697,right,20.0,0,0,2.5087442999938503,405782,001,2024-09-12_22h52.47.733,Adaptive  staircase_ZiyaRaval_Final,2024.1.5,None,2024-09-12 22h52.52.784998 +0530,
59,0.5,20.0,69.68300119999913,,69.6678786999837,69.68300119999913,70.18321299998206,70.18321299998206,70.18321299998206,,70.25134669998079,right,20.0,1,1,0.0529374000034295,405782,001,2024-09-12_22h52.47.733,Adaptive  staircase_ZiyaRaval_Final,2024.1.5,None,2024-09-12 22h52.52.784998 +0530,
60,0.5,20.0,70.2663928999973,,70.25145290000364,70.2663928999973,70.76572550000856,70.76572550000856,70.76572550000856,,70.83379179998883,left,-20.0,0,0,0.058724100003018975,405782,001,2024-09-12_22h52.47.733,Adaptive  staircase_ZiyaRaval_Final,2024.1.5,None,2024-09-12 22h52.52.784998 +0530,
61,0.5,20.0,70.84944649998215,,70.83390050000162,70.84944649998215,71.34982169998693,71.34982169998693,71.34982169998693,,71.46602980000898,right,20.0,0,0,0.11162640000111423,405782,001,2024-09-12_22h52.47.733,Adaptive  staircase_ZiyaRaval_Final,2024.1.5,None,2024-09-12 22h52.52.784998 +0530,
62,0.5,20.0,71.48184339998988,,71.46607959998073,71.48184339998988,71.96613670000806,71.96613670000806,71.98298239998985,,72.11887299999944,right,20.0,1,1,0.1466980999975931,405782,001,2024-09-12_22h52.47.733,Adaptive  staircase_ZiyaRaval_Final,2024.1.5,None,2024-09-12 22h52.52.784998 +0530,
63,0.5,20.0,72.13283159999992,,72.11901520000538,72.13283159999992,72.63271449998138,72.63271449998138,72.63271449998138,,72.7508198999858,left,-20.0,1,1,0.10305259999586269,405782,001,2024-09-12_22h52.47.733,Adaptive  staircase_ZiyaRaval_Final,2024.1.5,None,2024-09-12 22h52.52.784998 +0530,
64,0.5,20.0,72.76616259998991,,72.75092799999402,72.76616259998991,73.26616389999981,73.26616389999981,73.26616389999981,,73.4021597999963,left,-20.0,0,0,0.13164350000442937,405782,001,2024-09-12_22h52.47.733,Adaptive  staircase_ZiyaRaval_Final,2024.1.5,None,2024-09-12 22h52.52.784998 +0530,
65,0.5,20.0,73.41561830000137,,73.40228819998447,73.41561830000137,73.91604839998763,73.91604839998763,73.91604839998763,74.21555979998084,74.200170600001,left,-20.0,0,0,0.269371600006707,405782,001,2024-09-12_22h52.47.733,Adaptive  staircase_ZiyaRaval_Final,2024.1.5,None,2024-09-12 22h52.52.784998 +0530,
66,0.5,20.0,74.21555979998084,,74.20026169999619,74.21555979998084,74.71613309998065,74.71613309998065,74.71613309998065,,74.76777129998663,left,-20.0,0,0,0.04046760001801886,405782,001,2024-09-12_22h52.47.733,Adaptive  staircase_ZiyaRaval_Final,2024.1.5,None,2024-09-12 22h52.52.784998 +0530,
67,0.5,20.0,74.78230269998312,,74.76788880000822,74.78230269998312,75.28258420000202,75.28258420000202,75.28258420000202,75.58282179999514,85.89927779999562,right,20.0,0,0,10.6083255999838,405782,001,2024-09-12_22h52.47.733,Adaptive  staircase_ZiyaRaval_Final,2024.1.5,None,2024-09-12 22h52.52.784998 +0530,
68,0.5,20.0,85.91425479997997,,85.89941310000722,85.91425479997997,86.41442210000241,86.41442210000241,86.41442210000241,,86.58272429998033,right,20.0,0,0,0.15508699999190867,405782,001,2024-09-12_22h52.47.733,Adaptive  staircase_ZiyaRaval_Final,2024.1.5,None,2024-09-12 22h52.52.784998 +0530,
69,0.5,20.0,86.59777970000869,,86.58283539998229,86.59777970000869,87.09767049999209,87.09767049999209,87.09767049999209,,87.14884389998042,right,20.0,0,0,0.04687550000380725,405782,001,2024-09-12_22h52.47.733,Adaptive  staircase_ZiyaRaval_Final,2024.1.5,None,2024-09-12 22h52.52.784998 +0530,
70,0.5,20.0,87.16410550000728,,87.14897740000742,87.16410550000728,87.66407460000482,87.66407460000482,87.66407460000482,,87.81695380000747,right,20.0,1,1,0.15090499998768792,405782,001,2024-09-12_22h52.47.733,Adaptive  staircase_ZiyaRaval_Final,2024.1.5,None,2024-09-12 22h52.52.784998 +0530,
71,0.5,20.0,87.83065489999717,,87.81706929998472,87.83065489999717,88.33117170000332,88.33117170000332,88.33117170000332,,88.38336680000066,right,20.0,1,1,0.04670209999312647,405782,001,2024-09-12_22h52.47.733,Adaptive  staircase_ZiyaRaval_Final,2024.1.5,None,2024-09-12 22h52.52.784998 +0530,
72,0.5,20.0,88.39736339999945,,88.3834807999956,88.39736339999945,88.8973493000085,88.8973493000085,88.8973493000085,,88.99888139998075,left,-20.0,1,1,0.08948809999856167,405782,001,2024-09-12_22h52.47.733,Adaptive  staircase_ZiyaRaval_Final,2024.1.5,None,2024-09-12 22h52.52.784998 +0530,
73,0.5,19.5,89.01411580000422,,88.99899570000707,89.01411580000422,89.51406139999744,89.51406139999744,89.51406139999744,,89.5669787999941,right,19.5,0,0,0.04924009999376722,405782,001,2024-09-12_22h52.47.733,Adaptive  staircase_ZiyaRaval_Final,2024.1.5,None,2024-09-12 22h52.52.784998 +0530,
74,0.5,20.0,89.57967790000839,,89.5671294000058,89.57967790000839,90.0818648999848,90.0818648999848,90.0818648999848,,90.16687559999991,right,20.0,1,1,0.08315720001701266,405782,001,2024-09-12_22h52.47.733,Adaptive  staircase_ZiyaRaval_Final,2024.1.5,None,2024-09-12 22h52.52.784998 +0530,
75,0.5,20.0,90.18031649998738,,90.16699339999468,90.18031649998738,90.6806729999953,90.6806729999953,90.6806729999953,,90.78037349999067,left,-20.0,0,0,0.09277160000056028,405782,001,2024-09-12_22h52.47.733,Adaptive  staircase_ZiyaRaval_Final,2024.1.5,None,2024-09-12 22h52.52.784998 +0530,
76,0.5,20.0,90.79625329998089,,90.78048099999432,90.79625329998089,91.28051670000423,91.28051670000423,91.2970260999864,,91.29845239999122,left,-20.0,0,0,0.001984600006835535,405782,001,2024-09-12_22h52.47.733,Adaptive  staircase_ZiyaRaval_Final,2024.1.5,None,2024-09-12 22h52.52.784998 +0530,
77,0.5,20.0,91.31320699999924,,91.29856120000477,91.31320699999924,91.81486969999969,91.81486969999969,91.81486969999969,,91.98267629998736,right,20.0,0,0,0.16209410000010394,405782,001,2024-09-12_22h52.47.733,Adaptive  staircase_ZiyaRaval_Final,2024.1.5,None,2024-09-12 22h52.52.784998 +0530,
78,0.5,20.0,91.99690030000056,,91.9828215999878,91.99690030000056,92.497060099995,92.497060099995,92.497060099995,,92.60022639998351,right,20.0,0,0,0.10133040000800975,405782,001,2024-09-12_22h52.47.733,Adaptive  staircase_ZiyaRaval_Final,2024.1.5,None,2024-09-12 22h52.52.784998 +0530,
79,0.5,20.0,92.6126827999833,,92.6003526999848,92.6126827999833,93.1134352000081,93.1134352000081,93.1134352000081,,93.16547789998003,left,-20.0,1,1,0.048360399989178404,405782,001,2024-09-12_22h52.47.733,Adaptive  staircase_ZiyaRaval_Final,2024.1.5,None,2024-09-12 22h52.52.784998 +0530,
80,0.5,20.0,93.18011089999345,,93.16559980000602,93.18011089999345,93.6803254999977,93.6803254999977,93.6803254999977,,93.70005439998931,left,-20.0,0,0,0.014698799990583211,405782,001,2024-09-12_22h52.47.733,Adaptive  staircase_ZiyaRaval_Final,2024.1.5,None,2024-09-12 22h52.52.784998 +0530,
81,0.5,20.0,93.71421889998601,,93.70020399999339,93.71421889998601,94.21320790000027,94.21320790000027,94.23032599998987,,94.23195650000707,right,20.0,1,1,0.014581199997337535,405782,001,2024-09-12_22h52.47.733,Adaptive  staircase_ZiyaRaval_Final,2024.1.5,None,2024-09-12 22h52.52.784998 +0530,
82,0.5,20.0,94.246401899989,,94.23205419999431,94.246401899989,94.74675779999234,94.74675779999234,94.74675779999234,,94.86467169999378,left,-20.0,0,0,0.10490889998618513,405782,001,2024-09-12_22h52.47.733,Adaptive  staircase_ZiyaRaval_Final,2024.1.5,None,2024-09-12 22h52.52.784998 +0530,
83,0.5,20.0,94.87982639999245,,94.86478070000885,94.87982639999245,95.38010489998851,95.38010489998851,95.38010489998851,,95.56568599998718,right,20.0,0,0,0.17969569997512735,405782,001,2024-09-12_22h52.47.733,Adaptive  staircase_ZiyaRaval_Final,2024.1.5,None,2024-09-12 22h52.52.784998 +0530,
84,0.5,20.0,95.57969049998792,,95.56580819998635,95.57969049998792,96.07956949999789,96.07956949999789,96.07956949999789,96.38012089999393,97.18153479998,left,-20.0,1,1,1.089909699978307,405782,001,2024-09-12_22h52.47.733,Adaptive  staircase_ZiyaRaval_Final,2024.1.5,None,2024-09-12 22h52.52.784998 +0530,
85,0.5,20.0,97.19553490000544,,97.18164910000633,97.19553490000544,97.69631179998396,97.69631179998396,97.69631179998396,,97.7807979999925,right,20.0,1,1,0.08194689999800175,405782,001,2024-09-12_22h52.47.733,Adaptive  staircase_ZiyaRaval_Final,2024.1.5,None,2024-09-12 22h52.52.784998 +0530,
86,0.5,20.0,97.79588160000276,,97.78088289999869,97.79588160000276,98.29671409999719,98.29671409999719,98.29671409999719,,98.48179089999758,left,-20.0,1,1,0.18089489999692887,405782,001,2024-09-12_22h52.47.733,Adaptive  staircase_ZiyaRaval_Final,2024.1.5,None,2024-09-12 22h52.52.784998 +0530,
87,0.5,19.5,98.49574049998773,,98.48190359998262,98.49574049998773,98.99534439999843,98.99534439999843,98.99534439999843,,99.13197570000193,left,-19.5,1,1,None,405782,001,2024-09-12_22h52.47.733,Adaptive  staircase_ZiyaRaval_Final,2024.1.5,None,2024-09-12 22h52.52.784998 +0530,
88,0.5,19.5,99.14601389999734,,99.13208949999535,99.14601389999734,99.64605399998254,99.64605399998254,99.64605399998254,99.94635949999793,100.21383399999468,right,19.5,1,1,0.5537298000126611,405782,001,2024-09-12_22h52.47.733,Adaptive  staircase_ZiyaRaval_Final,2024.1.5,None,2024-09-12 22h52.52.784998 +0530,
89,0.5,19.5,100.22935380000854,,100.21394489999511,100.22935380000854,100.72918510000454,100.72918510000454,100.74590650000027,101.02825579998898,101.02921569999307,left,-19.5,1,1,0.2871021000028122,405782,001,2024-09-12_22h52.47.733,Adaptive  staircase_ZiyaRaval_Final,2024.1.5,None,2024-09-12 22h52.52.784998 +0530,
90,0.5,19.0,101.04509919998236,,101.02930209998158,101.04509919998236,101.53086649999022,101.53086649999022,101.54648659998202,101.84465039998759,101.91407989998697,left,-19.0,0,0,0.36590129998512566,405782,001,2024-09-12_22h52.47.733,Adaptive  staircase_ZiyaRaval_Final,2024.1.5,None,2024-09-12 22h52.52.784998 +0530,
91,0.5,19.5,101.92876169999363,,101.91418039999553,101.92876169999363,102.42948120000074,102.42948120000074,102.42948120000074,102.72882669998216,102.7304438999854,right,19.5,0,0,0.29319549998035654,405782,001,2024-09-12_22h52.47.733,Adaptive  staircase_ZiyaRaval_Final,2024.1.5,None,2024-09-12 22h52.52.784998 +0530,
92,0.5,20.0,102.74531440000283,,102.73059639998246,102.74531440000283,103.24562139998307,103.24562139998307,103.24562139998307,,103.33010379999178,right,20.0,1,1,0.07605160001548938,405782,001,2024-09-12_22h52.47.733,Adaptive  staircase_ZiyaRaval_Final,2024.1.5,None,2024-09-12 22h52.52.784998 +0530,
93,0.5,20.0,103.3455020999827,,103.33020289998967,103.3455020999827,103.84617979999166,103.84617979999166,103.84617979999166,,103.99712699998054,left,-20.0,0,0,0.1386717999994289,405782,001,2024-09-12_22h52.47.733,Adaptive  staircase_ZiyaRaval_Final,2024.1.5,None,2024-09-12 22h52.52.784998 +0530,
94,0.5,20.0,104.01208129999577,,103.99723799998173,104.01208129999577,104.51206999999704,104.51206999999704,104.51206999999704,,104.61489530000836,left,-20.0,1,1,0.09851239999989048,405782,001,2024-09-12_22h52.47.733,Adaptive  staircase_ZiyaRaval_Final,2024.1.5,None,2024-09-12 22h52.52.784998 +0530,
95,0.5,20.0,104.62856690000626,,104.61500329998671,104.62856690000626,105.12790319998749,105.12790319998749,105.12790319998749,105.42928789998405,105.54588620000868,right,20.0,0,0,0.4138641000026837,405782,001,2024-09-12_22h52.47.733,Adaptive  staircase_ZiyaRaval_Final,2024.1.5,None,2024-09-12 22h52.52.784998 +0530,
96,0.5,20.0,105.56174420000752,,105.5459697000042,105.56174420000752,106.04665239999304,106.04665239999304,106.06246799998917,,106.08151279998128,right,20.0,0,0,0.017141499993158504,405782,001,2024-09-12_22h52.47.733,Adaptive  staircase_ZiyaRaval_Final,2024.1.5,None,2024-09-12 22h52.52.784998 +0530,
97,0.5,20.0,106.09578639999381,,106.08164269998088,106.09578639999381,106.595115300006,106.595115300006,106.595115300006,,106.76423359999899,left,-20.0,1,1,0.16355480000493117,405782,001,2024-09-12_22h52.47.733,Adaptive  staircase_ZiyaRaval_Final,2024.1.5,None,2024-09-12 22h52.52.784998 +0530,
98,0.5,20.0,106.77830410000752,,106.76437109999824,106.77830410000752,107.27832909999415,107.27832909999415,107.27832909999415,,107.44605189998401,left,-20.0,0,0,0.15936839999631047,405782,001,2024-09-12_22h52.47.733,Adaptive  staircase_ZiyaRaval_Final,2024.1.5,None,2024-09-12 22h52.52.784998 +0530,
99,0.5,20.0,107.46140349999769,,107.44617280000239,107.46140349999769,107.94508770000539,107.94508770000539,107.96188309998251,,108.09633870000835,right,20.0,0,0,0.14220729999942705,405782,001,2024-09-12_22h52.47.733,Adaptive  staircase_ZiyaRaval_Final,2024.1.5,None,2024-09-12 22h52.52.784998 +0530,
